submission_id,RT,age,anchor,anchor_knowledge,answer,comments,education,endTime,experiment_id,gender,languages,question,startDate,startTime,timeSpent,trial_number
146,7494,22,high,yes,1910,,graduated_college,1536322852945,14,female,German,4,Fri Sep 07 2018 08:12:49 GMT-0400 (EDT),1536322369912,8.05055,1
146,3748,22,high,yes,100,,graduated_college,1536322852945,14,female,German,7,Fri Sep 07 2018 08:12:49 GMT-0400 (EDT),1536322369912,8.05055,2
146,11094,22,low,yes,170,,graduated_college,1536322852945,14,female,German,2,Fri Sep 07 2018 08:12:49 GMT-0400 (EDT),1536322369912,8.05055,3
146,14352,22,low,yes,193,,graduated_college,1536322852945,14,female,German,3,Fri Sep 07 2018 08:12:49 GMT-0400 (EDT),1536322369912,8.05055,4
146,5267,22,low,yes,1400,,graduated_college,1536322852945,14,female,German,12,Fri Sep 07 2018 08:12:49 GMT-0400 (EDT),1536322369912,8.05055,5
146,8396,22,low,yes,600,,graduated_college,1536322852945,14,female,German,1,Fri Sep 07 2018 08:12:49 GMT-0400 (EDT),1536322369912,8.05055,6
146,7790,22,low,yes,100,,graduated_college,1536322852945,14,female,German,5,Fri Sep 07 2018 08:12:49 GMT-0400 (EDT),1536322369912,8.05055,7
146,6942,22,low,yes,200,,graduated_college,1536322852945,14,female,German,6,Fri Sep 07 2018 08:12:49 GMT-0400 (EDT),1536322369912,8.05055,8
146,7717,22,high,yes,100000,,graduated_college,1536322852945,14,female,German,9,Fri Sep 07 2018 08:12:49 GMT-0400 (EDT),1536322369912,8.05055,9
146,3981,22,high,yes,89,,graduated_college,1536322852945,14,female,German,11,Fri Sep 07 2018 08:12:49 GMT-0400 (EDT),1536322369912,8.05055,10
146,8574,22,high,yes,5000,,graduated_college,1536322852945,14,female,German,8,Fri Sep 07 2018 08:12:49 GMT-0400 (EDT),1536322369912,8.05055,11
146,6603,22,high,yes,140,,graduated_college,1536322852945,14,female,German,10,Fri Sep 07 2018 08:12:49 GMT-0400 (EDT),1536322369912,8.05055,12
145,5073,22,high,yes,350000,,graduated_high_school,1536149552475,14,male,German,9,Wed Sep 05 2018 14:07:30 GMT+0200 (CEST),1536149250058,5.040283333333333,1
145,11633,22,low,yes,74,,graduated_high_school,1536149552475,14,male,German,11,Wed Sep 05 2018 14:07:30 GMT+0200 (CEST),1536149250058,5.040283333333333,2
145,7662,22,low,yes,1845,,graduated_high_school,1536149552475,14,male,German,4,Wed Sep 05 2018 14:07:30 GMT+0200 (CEST),1536149250058,5.040283333333333,3
145,7410,22,high,yes,370,,graduated_high_school,1536149552475,14,male,German,2,Wed Sep 05 2018 14:07:30 GMT+0200 (CEST),1536149250058,5.040283333333333,4
145,6203,22,low,yes,58,,graduated_high_school,1536149552475,14,male,German,3,Wed Sep 05 2018 14:07:30 GMT+0200 (CEST),1536149250058,5.040283333333333,5
145,16403,22,low,yes,1520,,graduated_high_school,1536149552475,14,male,German,12,Wed Sep 05 2018 14:07:30 GMT+0200 (CEST),1536149250058,5.040283333333333,6
145,11155,22,high,yes,92,,graduated_high_school,1536149552475,14,male,German,7,Wed Sep 05 2018 14:07:30 GMT+0200 (CEST),1536149250058,5.040283333333333,7
145,11359,22,high,yes,5000,,graduated_high_school,1536149552475,14,male,German,5,Wed Sep 05 2018 14:07:30 GMT+0200 (CEST),1536149250058,5.040283333333333,8
145,4694,22,high,yes,1500,,graduated_high_school,1536149552475,14,male,German,1,Wed Sep 05 2018 14:07:30 GMT+0200 (CEST),1536149250058,5.040283333333333,9
145,3836,22,low,yes,130,,graduated_high_school,1536149552475,14,male,German,10,Wed Sep 05 2018 14:07:30 GMT+0200 (CEST),1536149250058,5.040283333333333,10
145,10148,22,high,yes,400,,graduated_high_school,1536149552475,14,male,German,6,Wed Sep 05 2018 14:07:30 GMT+0200 (CEST),1536149250058,5.040283333333333,11
145,8269,22,low,yes,1000,,graduated_high_school,1536149552475,14,male,German,8,Wed Sep 05 2018 14:07:30 GMT+0200 (CEST),1536149250058,5.040283333333333,12
144,18232,54,high,no,1250,,graduated_college,1536147357696,14,female,German,1,Wed Sep 05 2018 13:30:12 GMT+0200 (Mitteleuropäische Sommerzeit),1536147012631,5.751083333333334,1
144,5657,54,high,no,1500,,graduated_college,1536147357696,14,female,German,12,Wed Sep 05 2018 13:30:12 GMT+0200 (Mitteleuropäische Sommerzeit),1536147012631,5.751083333333334,2
144,5657,54,low,no,33000,,graduated_college,1536147357696,14,female,German,9,Wed Sep 05 2018 13:30:12 GMT+0200 (Mitteleuropäische Sommerzeit),1536147012631,5.751083333333334,3
144,5642,54,high,no,130,,graduated_college,1536147357696,14,female,German,7,Wed Sep 05 2018 13:30:12 GMT+0200 (Mitteleuropäische Sommerzeit),1536147012631,5.751083333333334,4
144,3630,54,low,no,60,,graduated_college,1536147357696,14,female,German,2,Wed Sep 05 2018 13:30:12 GMT+0200 (Mitteleuropäische Sommerzeit),1536147012631,5.751083333333334,5
144,4059,54,low,no,158,,graduated_college,1536147357696,14,female,German,3,Wed Sep 05 2018 13:30:12 GMT+0200 (Mitteleuropäische Sommerzeit),1536147012631,5.751083333333334,6
144,5361,54,high,no,1846,,graduated_college,1536147357696,14,female,German,4,Wed Sep 05 2018 13:30:12 GMT+0200 (Mitteleuropäische Sommerzeit),1536147012631,5.751083333333334,7
144,3231,54,low,no,1200,,graduated_college,1536147357696,14,female,German,8,Wed Sep 05 2018 13:30:12 GMT+0200 (Mitteleuropäische Sommerzeit),1536147012631,5.751083333333334,8
144,5388,54,low,no,61,,graduated_college,1536147357696,14,female,German,11,Wed Sep 05 2018 13:30:12 GMT+0200 (Mitteleuropäische Sommerzeit),1536147012631,5.751083333333334,9
144,4492,54,high,no,12000,,graduated_college,1536147357696,14,female,German,5,Wed Sep 05 2018 13:30:12 GMT+0200 (Mitteleuropäische Sommerzeit),1536147012631,5.751083333333334,10
144,4011,54,high,no,188,,graduated_college,1536147357696,14,female,German,10,Wed Sep 05 2018 13:30:12 GMT+0200 (Mitteleuropäische Sommerzeit),1536147012631,5.751083333333334,11
144,3187,54,low,no,350,,graduated_college,1536147357696,14,female,German,6,Wed Sep 05 2018 13:30:12 GMT+0200 (Mitteleuropäische Sommerzeit),1536147012631,5.751083333333334,12
143,5249,21,low,no,1880,,graduated_college,1536143343900,14,female,"German, English",4,Wed Sep 05 2018 12:26:17 GMT+0200 (CEST),1536143177941,2.7659833333333332,1
143,4063,21,low,no,567,,graduated_college,1536143343900,14,female,"German, English",1,Wed Sep 05 2018 12:26:17 GMT+0200 (CEST),1536143177941,2.7659833333333332,2
143,4037,21,high,no,79,,graduated_college,1536143343900,14,female,"German, English",11,Wed Sep 05 2018 12:26:17 GMT+0200 (CEST),1536143177941,2.7659833333333332,3
143,3545,21,high,no,11000,,graduated_college,1536143343900,14,female,"German, English",5,Wed Sep 05 2018 12:26:17 GMT+0200 (CEST),1536143177941,2.7659833333333332,4
143,2686,21,low,no,256,,graduated_college,1536143343900,14,female,"German, English",8,Wed Sep 05 2018 12:26:17 GMT+0200 (CEST),1536143177941,2.7659833333333332,5
143,7424,21,low,no,250000,,graduated_college,1536143343900,14,female,"German, English",9,Wed Sep 05 2018 12:26:17 GMT+0200 (CEST),1536143177941,2.7659833333333332,6
143,4366,21,high,no,150,,graduated_college,1536143343900,14,female,"German, English",2,Wed Sep 05 2018 12:26:17 GMT+0200 (CEST),1536143177941,2.7659833333333332,7
143,2971,21,high,no,700,,graduated_college,1536143343900,14,female,"German, English",6,Wed Sep 05 2018 12:26:17 GMT+0200 (CEST),1536143177941,2.7659833333333332,8
143,4341,21,low,no,1450,,graduated_college,1536143343900,14,female,"German, English",12,Wed Sep 05 2018 12:26:17 GMT+0200 (CEST),1536143177941,2.7659833333333332,9
143,8009,21,low,no,45,,graduated_college,1536143343900,14,female,"German, English",10,Wed Sep 05 2018 12:26:17 GMT+0200 (CEST),1536143177941,2.7659833333333332,10
143,2816,21,high,no,122,,graduated_college,1536143343900,14,female,"German, English",3,Wed Sep 05 2018 12:26:17 GMT+0200 (CEST),1536143177941,2.7659833333333332,11
143,2443,21,high,no,98,,graduated_college,1536143343900,14,female,"German, English",7,Wed Sep 05 2018 12:26:17 GMT+0200 (CEST),1536143177941,2.7659833333333332,12
142,14306,22,low,yes,30,,graduated_high_school,1536142599064,14,male,German,10,Wed Sep 05 2018 12:08:38 GMT+0200 (Mitteleuropäische Sommerzeit),1536142118882,8.003033333333333,1
142,5702,22,high,yes,1500,,graduated_high_school,1536142599064,14,male,German,12,Wed Sep 05 2018 12:08:38 GMT+0200 (Mitteleuropäische Sommerzeit),1536142118882,8.003033333333333,2
142,6628,22,low,yes,1960,,graduated_high_school,1536142599064,14,male,German,4,Wed Sep 05 2018 12:08:38 GMT+0200 (Mitteleuropäische Sommerzeit),1536142118882,8.003033333333333,3
142,15828,22,low,yes,3000,,graduated_high_school,1536142599064,14,male,German,1,Wed Sep 05 2018 12:08:38 GMT+0200 (Mitteleuropäische Sommerzeit),1536142118882,8.003033333333333,4
142,10424,22,high,yes,40000,,graduated_high_school,1536142599064,14,male,German,8,Wed Sep 05 2018 12:08:38 GMT+0200 (Mitteleuropäische Sommerzeit),1536142118882,8.003033333333333,5
142,3824,22,low,yes,40,,graduated_high_school,1536142599064,14,male,German,7,Wed Sep 05 2018 12:08:38 GMT+0200 (Mitteleuropäische Sommerzeit),1536142118882,8.003033333333333,6
142,11025,22,high,yes,5000,,graduated_high_school,1536142599064,14,male,German,5,Wed Sep 05 2018 12:08:38 GMT+0200 (Mitteleuropäische Sommerzeit),1536142118882,8.003033333333333,7
142,6831,22,low,yes,800,,graduated_high_school,1536142599064,14,male,German,6,Wed Sep 05 2018 12:08:38 GMT+0200 (Mitteleuropäische Sommerzeit),1536142118882,8.003033333333333,8
142,7848,22,high,yes,800001,,graduated_high_school,1536142599064,14,male,German,9,Wed Sep 05 2018 12:08:38 GMT+0200 (Mitteleuropäische Sommerzeit),1536142118882,8.003033333333333,9
142,8825,22,high,yes,100,,graduated_high_school,1536142599064,14,male,German,11,Wed Sep 05 2018 12:08:38 GMT+0200 (Mitteleuropäische Sommerzeit),1536142118882,8.003033333333333,10
142,7366,22,low,yes,30,,graduated_high_school,1536142599064,14,male,German,3,Wed Sep 05 2018 12:08:38 GMT+0200 (Mitteleuropäische Sommerzeit),1536142118882,8.003033333333333,11
142,3224,22,high,yes,110,,graduated_high_school,1536142599064,14,male,German,2,Wed Sep 05 2018 12:08:38 GMT+0200 (Mitteleuropäische Sommerzeit),1536142118882,8.003033333333333,12
141,2598,22,low,no,18,,graduated_high_school,1536139765315,14,male,German,3,Wed Sep 05 2018 10:26:19 GMT+0100 (WEST),1536139579131,3.103066666666667,1
141,3620,22,high,no,110,,graduated_high_school,1536139765315,14,male,German,7,Wed Sep 05 2018 10:26:19 GMT+0100 (WEST),1536139579131,3.103066666666667,2
141,2960,22,high,no,1400,,graduated_high_school,1536139765315,14,male,German,1,Wed Sep 05 2018 10:26:19 GMT+0100 (WEST),1536139579131,3.103066666666667,3
141,2743,22,high,no,72,,graduated_high_school,1536139765315,14,male,German,11,Wed Sep 05 2018 10:26:19 GMT+0100 (WEST),1536139579131,3.103066666666667,4
141,3016,22,low,no,1300,,graduated_high_school,1536139765315,14,male,German,12,Wed Sep 05 2018 10:26:19 GMT+0100 (WEST),1536139579131,3.103066666666667,5
141,2302,22,low,no,200,,graduated_high_school,1536139765315,14,male,German,5,Wed Sep 05 2018 10:26:19 GMT+0100 (WEST),1536139579131,3.103066666666667,6
141,2910,22,high,no,200,,graduated_high_school,1536139765315,14,male,German,2,Wed Sep 05 2018 10:26:19 GMT+0100 (WEST),1536139579131,3.103066666666667,7
141,3656,22,low,no,500,,graduated_high_school,1536139765315,14,male,German,6,Wed Sep 05 2018 10:26:19 GMT+0100 (WEST),1536139579131,3.103066666666667,8
141,5854,22,high,no,100000,,graduated_high_school,1536139765315,14,male,German,9,Wed Sep 05 2018 10:26:19 GMT+0100 (WEST),1536139579131,3.103066666666667,9
141,2803,22,low,no,50,,graduated_high_school,1536139765315,14,male,German,10,Wed Sep 05 2018 10:26:19 GMT+0100 (WEST),1536139579131,3.103066666666667,10
141,3392,22,high,no,400,,graduated_high_school,1536139765315,14,male,German,8,Wed Sep 05 2018 10:26:19 GMT+0100 (WEST),1536139579131,3.103066666666667,11
141,2591,22,low,no,1823,,graduated_high_school,1536139765315,14,male,German,4,Wed Sep 05 2018 10:26:19 GMT+0100 (WEST),1536139579131,3.103066666666667,12
140,8735,23,high,no,2000,,higher_degree,1536072698671,14,female,German,8,Tue Sep 04 2018 16:44:36 GMT+0200 (CEST),1536072276311,7.039333333333333,1
140,4508,23,low,no,180,,higher_degree,1536072698671,14,female,German,1,Tue Sep 04 2018 16:44:36 GMT+0200 (CEST),1536072276311,7.039333333333333,2
140,4169,23,high,no,72,,higher_degree,1536072698671,14,female,German,7,Tue Sep 04 2018 16:44:36 GMT+0200 (CEST),1536072276311,7.039333333333333,3
140,12020,23,low,no,200,,higher_degree,1536072698671,14,female,German,5,Tue Sep 04 2018 16:44:36 GMT+0200 (CEST),1536072276311,7.039333333333333,4
140,3279,23,high,no,120,,higher_degree,1536072698671,14,female,German,10,Tue Sep 04 2018 16:44:36 GMT+0200 (CEST),1536072276311,7.039333333333333,5
140,6195,23,high,no,90,,higher_degree,1536072698671,14,female,German,11,Tue Sep 04 2018 16:44:36 GMT+0200 (CEST),1536072276311,7.039333333333333,6
140,10134,23,high,no,700,,higher_degree,1536072698671,14,female,German,9,Tue Sep 04 2018 16:44:36 GMT+0200 (CEST),1536072276311,7.039333333333333,7
140,15128,23,low,no,1966,,higher_degree,1536072698671,14,female,German,12,Tue Sep 04 2018 16:44:36 GMT+0200 (CEST),1536072276311,7.039333333333333,8
140,5499,23,high,no,300,,higher_degree,1536072698671,14,female,German,6,Tue Sep 04 2018 16:44:36 GMT+0200 (CEST),1536072276311,7.039333333333333,9
140,3613,23,low,no,30,,higher_degree,1536072698671,14,female,German,2,Tue Sep 04 2018 16:44:36 GMT+0200 (CEST),1536072276311,7.039333333333333,10
140,5431,23,low,no,1900,,higher_degree,1536072698671,14,female,German,4,Tue Sep 04 2018 16:44:36 GMT+0200 (CEST),1536072276311,7.039333333333333,11
140,2618,23,low,no,15,,higher_degree,1536072698671,14,female,German,3,Tue Sep 04 2018 16:44:36 GMT+0200 (CEST),1536072276311,7.039333333333333,12
139,23390,,high,,2200,,,1536070050488,14,,,9,Tue Sep 04 2018 16:00:58 GMT+0200 (CEST),1536069658748,6529,1
139,43015,,low,,50,,,1536070050488,14,,,3,Tue Sep 04 2018 16:00:58 GMT+0200 (CEST),1536069658748,6529,2
139,4711,,low,,400,,,1536070050488,14,,,6,Tue Sep 04 2018 16:00:58 GMT+0200 (CEST),1536069658748,6529,3
139,4103,,high,,200,,,1536070050488,14,,,10,Tue Sep 04 2018 16:00:58 GMT+0200 (CEST),1536069658748,6529,4
139,6501,,high,,900,,,1536070050488,14,,,1,Tue Sep 04 2018 16:00:58 GMT+0200 (CEST),1536069658748,6529,5
139,4357,,high,,200,,,1536070050488,14,,,8,Tue Sep 04 2018 16:00:58 GMT+0200 (CEST),1536069658748,6529,6
139,3639,,low,,88,,,1536070050488,14,,,7,Tue Sep 04 2018 16:00:58 GMT+0200 (CEST),1536069658748,6529,7
139,6992,,high,,100,,,1536070050488,14,,,2,Tue Sep 04 2018 16:00:58 GMT+0200 (CEST),1536069658748,6529,8
139,5008,,low,,1400,,,1536070050488,14,,,12,Tue Sep 04 2018 16:00:58 GMT+0200 (CEST),1536069658748,6529,9
139,7898,,low,,1910,,,1536070050488,14,,,4,Tue Sep 04 2018 16:00:58 GMT+0200 (CEST),1536069658748,6529,10
139,3573,,low,,70,,,1536070050488,14,,,11,Tue Sep 04 2018 16:00:58 GMT+0200 (CEST),1536069658748,6529,11
139,4610,,high,,800,,,1536070050488,14,,,5,Tue Sep 04 2018 16:00:58 GMT+0200 (CEST),1536069658748,6529,12
138,7832,26,high,no,2000,,graduated_high_school,1536069681763,14,male,Turkish German,1,Tue Sep 04 2018 15:55:49 GMT+0200 (CEST),1536069349614,5.535816666666666,1
138,5548,26,low,no,100000,,graduated_high_school,1536069681763,14,male,Turkish German,9,Tue Sep 04 2018 15:55:49 GMT+0200 (CEST),1536069349614,5.535816666666666,2
138,4261,26,low,no,200,,graduated_high_school,1536069681763,14,male,Turkish German,6,Tue Sep 04 2018 15:55:49 GMT+0200 (CEST),1536069349614,5.535816666666666,3
138,5868,26,high,no,200,,graduated_high_school,1536069681763,14,male,Turkish German,10,Tue Sep 04 2018 15:55:49 GMT+0200 (CEST),1536069349614,5.535816666666666,4
138,5423,26,high,no,300,,graduated_high_school,1536069681763,14,male,Turkish German,2,Tue Sep 04 2018 15:55:49 GMT+0200 (CEST),1536069349614,5.535816666666666,5
138,5415,26,high,no,3999,,graduated_high_school,1536069681763,14,male,Turkish German,8,Tue Sep 04 2018 15:55:49 GMT+0200 (CEST),1536069349614,5.535816666666666,6
138,4873,26,low,no,100,,graduated_high_school,1536069681763,14,male,Turkish German,7,Tue Sep 04 2018 15:55:49 GMT+0200 (CEST),1536069349614,5.535816666666666,7
138,4059,26,high,no,190,,graduated_high_school,1536069681763,14,male,Turkish German,3,Tue Sep 04 2018 15:55:49 GMT+0200 (CEST),1536069349614,5.535816666666666,8
138,5117,26,low,no,30,,graduated_high_school,1536069681763,14,male,Turkish German,5,Tue Sep 04 2018 15:55:49 GMT+0200 (CEST),1536069349614,5.535816666666666,9
138,3636,26,high,no,80,,graduated_high_school,1536069681763,14,male,Turkish German,11,Tue Sep 04 2018 15:55:49 GMT+0200 (CEST),1536069349614,5.535816666666666,10
138,5836,26,low,no,1900,,graduated_high_school,1536069681763,14,male,Turkish German,4,Tue Sep 04 2018 15:55:49 GMT+0200 (CEST),1536069349614,5.535816666666666,11
138,10143,26,low,no,1300,,graduated_high_school,1536069681763,14,male,Turkish German,12,Tue Sep 04 2018 15:55:49 GMT+0200 (CEST),1536069349614,5.535816666666666,12
137,3365,23,low,,88,,graduated_high_school,1536069622218,14,female,,7,Tue Sep 04 2018 15:54:50 GMT+0200 (CEST),1536069290769,5.52415,1
137,5533,23,low,,26000,,graduated_high_school,1536069622218,14,female,,9,Tue Sep 04 2018 15:54:50 GMT+0200 (CEST),1536069290769,5.52415,2
137,4267,23,high,,15000,,graduated_high_school,1536069622218,14,female,,5,Tue Sep 04 2018 15:54:50 GMT+0200 (CEST),1536069290769,5.52415,3
137,19880,23,low,,310,,graduated_high_school,1536069622218,14,female,,8,Tue Sep 04 2018 15:54:50 GMT+0200 (CEST),1536069290769,5.52415,4
137,3202,23,low,,120,,graduated_high_school,1536069622218,14,female,,10,Tue Sep 04 2018 15:54:50 GMT+0200 (CEST),1536069290769,5.52415,5
137,7233,23,high,,1893,,graduated_high_school,1536069622218,14,female,,4,Tue Sep 04 2018 15:54:50 GMT+0200 (CEST),1536069290769,5.52415,6
137,4846,23,high,,120,,graduated_high_school,1536069622218,14,female,,3,Tue Sep 04 2018 15:54:50 GMT+0200 (CEST),1536069290769,5.52415,7
137,3845,23,high,,1050,,graduated_high_school,1536069622218,14,female,,6,Tue Sep 04 2018 15:54:50 GMT+0200 (CEST),1536069290769,5.52415,8
137,5967,23,high,,120,,graduated_high_school,1536069622218,14,female,,2,Tue Sep 04 2018 15:54:50 GMT+0200 (CEST),1536069290769,5.52415,9
137,3500,23,low,,1400,,graduated_high_school,1536069622218,14,female,,12,Tue Sep 04 2018 15:54:50 GMT+0200 (CEST),1536069290769,5.52415,10
137,3977,23,low,,300,,graduated_high_school,1536069622218,14,female,,1,Tue Sep 04 2018 15:54:50 GMT+0200 (CEST),1536069290769,5.52415,11
137,4867,23,high,,90,,graduated_high_school,1536069622218,14,female,,11,Tue Sep 04 2018 15:54:50 GMT+0200 (CEST),1536069290769,5.52415,12
136,8609,23,low,no,2000,,graduated_college,1536068999845,14,female,,1,Tue Sep 04 2018 15:43:07 GMT+0200 (Mitteleuropäische Sommerzeit),1536068587110,6.878916666666667,1
136,7180,23,high,no,700000,,graduated_college,1536068999845,14,female,,9,Tue Sep 04 2018 15:43:07 GMT+0200 (Mitteleuropäische Sommerzeit),1536068587110,6.878916666666667,2
136,4099,23,high,no,1730,,graduated_college,1536068999845,14,female,,12,Tue Sep 04 2018 15:43:07 GMT+0200 (Mitteleuropäische Sommerzeit),1536068587110,6.878916666666667,3
136,3184,23,low,no,20,,graduated_college,1536068999845,14,female,,2,Tue Sep 04 2018 15:43:07 GMT+0200 (Mitteleuropäische Sommerzeit),1536068587110,6.878916666666667,4
136,4337,23,high,no,370,,graduated_college,1536068999845,14,female,,10,Tue Sep 04 2018 15:43:07 GMT+0200 (Mitteleuropäische Sommerzeit),1536068587110,6.878916666666667,5
136,3928,23,high,no,800,,graduated_college,1536068999845,14,female,,6,Tue Sep 04 2018 15:43:07 GMT+0200 (Mitteleuropäische Sommerzeit),1536068587110,6.878916666666667,6
136,3196,23,low,no,77,,graduated_college,1536068999845,14,female,,11,Tue Sep 04 2018 15:43:07 GMT+0200 (Mitteleuropäische Sommerzeit),1536068587110,6.878916666666667,7
136,4160,23,low,no,20,,graduated_college,1536068999845,14,female,,8,Tue Sep 04 2018 15:43:07 GMT+0200 (Mitteleuropäische Sommerzeit),1536068587110,6.878916666666667,8
136,3800,23,low,no,1900,,graduated_college,1536068999845,14,female,,4,Tue Sep 04 2018 15:43:07 GMT+0200 (Mitteleuropäische Sommerzeit),1536068587110,6.878916666666667,9
136,4622,23,high,no,215,,graduated_college,1536068999845,14,female,,7,Tue Sep 04 2018 15:43:07 GMT+0200 (Mitteleuropäische Sommerzeit),1536068587110,6.878916666666667,10
136,6093,23,high,no,50000,,graduated_college,1536068999845,14,female,,5,Tue Sep 04 2018 15:43:07 GMT+0200 (Mitteleuropäische Sommerzeit),1536068587110,6.878916666666667,11
136,3462,23,low,no,20,,graduated_college,1536068999845,14,female,,3,Tue Sep 04 2018 15:43:07 GMT+0200 (Mitteleuropäische Sommerzeit),1536068587110,6.878916666666667,12
135,4532,23,low,no,70,Nowadays I speak 8 languages xD,graduated_high_school,1536068094920,14,male,3,11,Tue Sep 04 2018 15:29:46 GMT+0200 (CEST),1536067786289,5.14385,1
135,15542,23,low,no,40,Nowadays I speak 8 languages xD,graduated_high_school,1536068094920,14,male,3,2,Tue Sep 04 2018 15:29:46 GMT+0200 (CEST),1536067786289,5.14385,2
135,10085,23,low,no,1473,Nowadays I speak 8 languages xD,graduated_high_school,1536068094920,14,male,3,12,Tue Sep 04 2018 15:29:46 GMT+0200 (CEST),1536067786289,5.14385,3
135,3984,23,low,no,15,Nowadays I speak 8 languages xD,graduated_high_school,1536068094920,14,male,3,5,Tue Sep 04 2018 15:29:46 GMT+0200 (CEST),1536067786289,5.14385,4
135,5575,23,low,no,156,Nowadays I speak 8 languages xD,graduated_high_school,1536068094920,14,male,3,3,Tue Sep 04 2018 15:29:46 GMT+0200 (CEST),1536067786289,5.14385,5
135,6386,23,high,no,1000000,Nowadays I speak 8 languages xD,graduated_high_school,1536068094920,14,male,3,9,Tue Sep 04 2018 15:29:46 GMT+0200 (CEST),1536067786289,5.14385,6
135,3823,23,low,no,500,Nowadays I speak 8 languages xD,graduated_high_school,1536068094920,14,male,3,6,Tue Sep 04 2018 15:29:46 GMT+0200 (CEST),1536067786289,5.14385,7
135,3111,23,high,no,80,Nowadays I speak 8 languages xD,graduated_high_school,1536068094920,14,male,3,7,Tue Sep 04 2018 15:29:46 GMT+0200 (CEST),1536067786289,5.14385,8
135,5963,23,high,no,100000,Nowadays I speak 8 languages xD,graduated_high_school,1536068094920,14,male,3,8,Tue Sep 04 2018 15:29:46 GMT+0200 (CEST),1536067786289,5.14385,9
135,4279,23,high,no,200,Nowadays I speak 8 languages xD,graduated_high_school,1536068094920,14,male,3,10,Tue Sep 04 2018 15:29:46 GMT+0200 (CEST),1536067786289,5.14385,10
135,5132,23,high,no,1860,Nowadays I speak 8 languages xD,graduated_high_school,1536068094920,14,male,3,4,Tue Sep 04 2018 15:29:46 GMT+0200 (CEST),1536067786289,5.14385,11
135,6844,23,high,no,1500,Nowadays I speak 8 languages xD,graduated_high_school,1536068094920,14,male,3,1,Tue Sep 04 2018 15:29:46 GMT+0200 (CEST),1536067786289,5.14385,12
134,9316,17,low,no,83,,graduated_high_school,1535723182343,14,male,German,11,Fri Aug 31 2018 15:40:31 GMT+0200 (Mitteleuropäische Sommerzeit),1535722831618,5.845416666666667,1
134,6628,17,high,no,30000,,graduated_high_school,1535723182343,14,male,German,8,Fri Aug 31 2018 15:40:31 GMT+0200 (Mitteleuropäische Sommerzeit),1535722831618,5.845416666666667,2
134,12129,17,high,no,301000,,graduated_high_school,1535723182343,14,male,German,9,Fri Aug 31 2018 15:40:31 GMT+0200 (Mitteleuropäische Sommerzeit),1535722831618,5.845416666666667,3
134,5590,17,low,no,61,,graduated_high_school,1535723182343,14,male,German,7,Fri Aug 31 2018 15:40:31 GMT+0200 (Mitteleuropäische Sommerzeit),1535722831618,5.845416666666667,4
134,16723,17,low,no,350,,graduated_high_school,1535723182343,14,male,German,6,Fri Aug 31 2018 15:40:31 GMT+0200 (Mitteleuropäische Sommerzeit),1535722831618,5.845416666666667,5
134,7274,17,low,no,1870,,graduated_high_school,1535723182343,14,male,German,4,Fri Aug 31 2018 15:40:31 GMT+0200 (Mitteleuropäische Sommerzeit),1535722831618,5.845416666666667,6
134,13796,17,low,no,140,,graduated_high_school,1535723182343,14,male,German,3,Fri Aug 31 2018 15:40:31 GMT+0200 (Mitteleuropäische Sommerzeit),1535722831618,5.845416666666667,7
134,5882,17,high,no,1400,,graduated_high_school,1535723182343,14,male,German,1,Fri Aug 31 2018 15:40:31 GMT+0200 (Mitteleuropäische Sommerzeit),1535722831618,5.845416666666667,8
134,6390,17,high,no,60000,,graduated_high_school,1535723182343,14,male,German,5,Fri Aug 31 2018 15:40:31 GMT+0200 (Mitteleuropäische Sommerzeit),1535722831618,5.845416666666667,9
134,7214,17,high,no,203,,graduated_high_school,1535723182343,14,male,German,10,Fri Aug 31 2018 15:40:31 GMT+0200 (Mitteleuropäische Sommerzeit),1535722831618,5.845416666666667,10
134,10548,17,high,no,1499,,graduated_high_school,1535723182343,14,male,German,12,Fri Aug 31 2018 15:40:31 GMT+0200 (Mitteleuropäische Sommerzeit),1535722831618,5.845416666666667,11
134,4878,17,low,no,55,,graduated_high_school,1535723182343,14,male,German,2,Fri Aug 31 2018 15:40:31 GMT+0200 (Mitteleuropäische Sommerzeit),1535722831618,5.845416666666667,12
133,15760,22,high,yes,1500,,graduated_college,1535716819926,14,female,German,5,Fri Aug 31 2018 13:55:21 GMT+0200 (Mitteleuropäische Sommerzeit),1535716521139,4.979783333333334,1
133,15945,22,high,yes,700,,graduated_college,1535716819926,14,female,German,6,Fri Aug 31 2018 13:55:21 GMT+0200 (Mitteleuropäische Sommerzeit),1535716521139,4.979783333333334,2
133,6978,22,low,yes,1910,,graduated_college,1535716819926,14,female,German,4,Fri Aug 31 2018 13:55:21 GMT+0200 (Mitteleuropäische Sommerzeit),1535716521139,4.979783333333334,3
133,3527,22,low,yes,500,,graduated_college,1535716819926,14,female,German,1,Fri Aug 31 2018 13:55:21 GMT+0200 (Mitteleuropäische Sommerzeit),1535716521139,4.979783333333334,4
133,4450,22,high,yes,10000,,graduated_college,1535716819926,14,female,German,8,Fri Aug 31 2018 13:55:21 GMT+0200 (Mitteleuropäische Sommerzeit),1535716521139,4.979783333333334,5
133,4030,22,high,yes,129,,graduated_college,1535716819926,14,female,German,3,Fri Aug 31 2018 13:55:21 GMT+0200 (Mitteleuropäische Sommerzeit),1535716521139,4.979783333333334,6
133,4820,22,low,yes,1450,,graduated_college,1535716819926,14,female,German,12,Fri Aug 31 2018 13:55:21 GMT+0200 (Mitteleuropäische Sommerzeit),1535716521139,4.979783333333334,7
133,3630,22,low,yes,60,,graduated_college,1535716819926,14,female,German,7,Fri Aug 31 2018 13:55:21 GMT+0200 (Mitteleuropäische Sommerzeit),1535716521139,4.979783333333334,8
133,5791,22,low,yes,100000,,graduated_college,1535716819926,14,female,German,9,Fri Aug 31 2018 13:55:21 GMT+0200 (Mitteleuropäische Sommerzeit),1535716521139,4.979783333333334,9
133,4816,22,high,yes,160,,graduated_college,1535716819926,14,female,German,10,Fri Aug 31 2018 13:55:21 GMT+0200 (Mitteleuropäische Sommerzeit),1535716521139,4.979783333333334,10
133,4291,22,high,yes,85,,graduated_college,1535716819926,14,female,German,11,Fri Aug 31 2018 13:55:21 GMT+0200 (Mitteleuropäische Sommerzeit),1535716521139,4.979783333333334,11
133,3946,22,low,yes,35,,graduated_college,1535716819926,14,female,German,2,Fri Aug 31 2018 13:55:21 GMT+0200 (Mitteleuropäische Sommerzeit),1535716521139,4.979783333333334,12
132,6653,59,low,no,1230,,higher_degree,1535661481060,14,male,German,12,Thu Aug 30 2018 22:32:10 GMT+0200 (CEST),1535661130121,5.848983333333333,1
132,28857,59,high,no,2500,,higher_degree,1535661481060,14,male,German,5,Thu Aug 30 2018 22:32:10 GMT+0200 (CEST),1535661130121,5.848983333333333,2
132,5235,59,low,no,65,,higher_degree,1535661481060,14,male,German,11,Thu Aug 30 2018 22:32:10 GMT+0200 (CEST),1535661130121,5.848983333333333,3
132,10594,59,high,no,1000000,,higher_degree,1535661481060,14,male,German,9,Thu Aug 30 2018 22:32:10 GMT+0200 (CEST),1535661130121,5.848983333333333,4
132,6310,59,high,no,2000,,higher_degree,1535661481060,14,male,German,8,Thu Aug 30 2018 22:32:10 GMT+0200 (CEST),1535661130121,5.848983333333333,5
132,8852,59,low,no,110,,higher_degree,1535661481060,14,male,German,3,Thu Aug 30 2018 22:32:10 GMT+0200 (CEST),1535661130121,5.848983333333333,6
132,6559,59,low,no,120,,higher_degree,1535661481060,14,male,German,10,Thu Aug 30 2018 22:32:10 GMT+0200 (CEST),1535661130121,5.848983333333333,7
132,6125,59,low,no,40,,higher_degree,1535661481060,14,male,German,2,Thu Aug 30 2018 22:32:10 GMT+0200 (CEST),1535661130121,5.848983333333333,8
132,17043,59,high,no,1880,,higher_degree,1535661481060,14,male,German,4,Thu Aug 30 2018 22:32:10 GMT+0200 (CEST),1535661130121,5.848983333333333,9
132,4877,59,low,no,55,,higher_degree,1535661481060,14,male,German,7,Thu Aug 30 2018 22:32:10 GMT+0200 (CEST),1535661130121,5.848983333333333,10
132,6689,59,high,no,750,,higher_degree,1535661481060,14,male,German,6,Thu Aug 30 2018 22:32:10 GMT+0200 (CEST),1535661130121,5.848983333333333,11
132,9724,59,high,no,1100,,higher_degree,1535661481060,14,male,German,1,Thu Aug 30 2018 22:32:10 GMT+0200 (CEST),1535661130121,5.848983333333333,12
131,4867,17,high,no,5000,,graduated_high_school,1535661281102,14,male,Greek Arabic German ,8,Thu Aug 30 2018 22:30:23 GMT+0200 (CEST),1535661023826,4.287933333333333,1
131,3526,17,low,no,500,,graduated_high_school,1535661281102,14,male,Greek Arabic German ,6,Thu Aug 30 2018 22:30:23 GMT+0200 (CEST),1535661023826,4.287933333333333,2
131,7646,17,high,no,5000,,graduated_high_school,1535661281102,14,male,Greek Arabic German ,1,Thu Aug 30 2018 22:30:23 GMT+0200 (CEST),1535661023826,4.287933333333333,3
131,7920,17,low,no,300000,,graduated_high_school,1535661281102,14,male,Greek Arabic German ,9,Thu Aug 30 2018 22:30:23 GMT+0200 (CEST),1535661023826,4.287933333333333,4
131,5727,17,low,no,150,,graduated_high_school,1535661281102,14,male,Greek Arabic German ,5,Thu Aug 30 2018 22:30:23 GMT+0200 (CEST),1535661023826,4.287933333333333,5
131,6302,17,low,no,92,,graduated_high_school,1535661281102,14,male,Greek Arabic German ,3,Thu Aug 30 2018 22:30:23 GMT+0200 (CEST),1535661023826,4.287933333333333,6
131,14077,17,high,no,1860,,graduated_high_school,1535661281102,14,male,Greek Arabic German ,4,Thu Aug 30 2018 22:30:23 GMT+0200 (CEST),1535661023826,4.287933333333333,7
131,6968,17,low,no,65,,graduated_high_school,1535661281102,14,male,Greek Arabic German ,11,Thu Aug 30 2018 22:30:23 GMT+0200 (CEST),1535661023826,4.287933333333333,8
131,5427,17,low,no,25,,graduated_high_school,1535661281102,14,male,Greek Arabic German ,10,Thu Aug 30 2018 22:30:23 GMT+0200 (CEST),1535661023826,4.287933333333333,9
131,3961,17,high,no,1700,,graduated_high_school,1535661281102,14,male,Greek Arabic German ,12,Thu Aug 30 2018 22:30:23 GMT+0200 (CEST),1535661023826,4.287933333333333,10
131,7056,17,high,no,60,,graduated_high_school,1535661281102,14,male,Greek Arabic German ,7,Thu Aug 30 2018 22:30:23 GMT+0200 (CEST),1535661023826,4.287933333333333,11
131,3507,17,high,no,400,,graduated_high_school,1535661281102,14,male,Greek Arabic German ,2,Thu Aug 30 2018 22:30:23 GMT+0200 (CEST),1535661023826,4.287933333333333,12
130,8913,24,high,yes,350,,higher_degree,1535660135576,14,male,German,6,Thu Aug 30 2018 23:06:48 GMT+0300 (EEST),1535659608007,8.792816666666667,1
130,15445,24,high,yes,450,,higher_degree,1535660135576,14,male,German,8,Thu Aug 30 2018 23:06:48 GMT+0300 (EEST),1535659608007,8.792816666666667,2
130,4136,24,high,yes,300,,higher_degree,1535660135576,14,male,German,2,Thu Aug 30 2018 23:06:48 GMT+0300 (EEST),1535659608007,8.792816666666667,3
130,5935,24,low,yes,1600,,higher_degree,1535660135576,14,male,German,12,Thu Aug 30 2018 23:06:48 GMT+0300 (EEST),1535659608007,8.792816666666667,4
130,13401,24,high,yes,1900,,higher_degree,1535660135576,14,male,German,4,Thu Aug 30 2018 23:06:48 GMT+0300 (EEST),1535659608007,8.792816666666667,5
130,8919,24,high,yes,750000,,higher_degree,1535660135576,14,male,German,9,Thu Aug 30 2018 23:06:48 GMT+0300 (EEST),1535659608007,8.792816666666667,6
130,8484,24,high,yes,88,,higher_degree,1535660135576,14,male,German,7,Thu Aug 30 2018 23:06:48 GMT+0300 (EEST),1535659608007,8.792816666666667,7
130,4270,24,low,yes,190,,higher_degree,1535660135576,14,male,German,3,Thu Aug 30 2018 23:06:48 GMT+0300 (EEST),1535659608007,8.792816666666667,8
130,6019,24,low,yes,70,,higher_degree,1535660135576,14,male,German,11,Thu Aug 30 2018 23:06:48 GMT+0300 (EEST),1535659608007,8.792816666666667,9
130,12210,24,low,yes,40,,higher_degree,1535660135576,14,male,German,10,Thu Aug 30 2018 23:06:48 GMT+0300 (EEST),1535659608007,8.792816666666667,10
130,26824,24,low,yes,1000,,higher_degree,1535660135576,14,male,German,5,Thu Aug 30 2018 23:06:48 GMT+0300 (EEST),1535659608007,8.792816666666667,11
130,49279,24,low,yes,1400,,higher_degree,1535660135576,14,male,German,1,Thu Aug 30 2018 23:06:48 GMT+0300 (EEST),1535659608007,8.792816666666667,12
129,8754,23,high,yes,1907,,graduated_college,1535659551303,14,male,1,4,Thu Aug 30 2018 22:58:02 GMT+0300 (EEST),1535659082003,7.821666666666666,1
129,22551,23,high,yes,193,,graduated_college,1535659551303,14,male,1,3,Thu Aug 30 2018 22:58:02 GMT+0300 (EEST),1535659082003,7.821666666666666,2
129,4371,23,low,yes,58,,graduated_college,1535659551303,14,male,1,7,Thu Aug 30 2018 22:58:02 GMT+0300 (EEST),1535659082003,7.821666666666666,3
129,5917,23,high,yes,800,,graduated_college,1535659551303,14,male,1,1,Thu Aug 30 2018 22:58:02 GMT+0300 (EEST),1535659082003,7.821666666666666,4
129,5378,23,low,yes,20,,graduated_college,1535659551303,14,male,1,2,Thu Aug 30 2018 22:58:02 GMT+0300 (EEST),1535659082003,7.821666666666666,5
129,24687,23,low,yes,1000000,,graduated_college,1535659551303,14,male,1,9,Thu Aug 30 2018 22:58:02 GMT+0300 (EEST),1535659082003,7.821666666666666,6
129,3861,23,high,yes,92,,graduated_college,1535659551303,14,male,1,11,Thu Aug 30 2018 22:58:02 GMT+0300 (EEST),1535659082003,7.821666666666666,7
129,11948,23,low,yes,10000,,graduated_college,1535659551303,14,male,1,5,Thu Aug 30 2018 22:58:02 GMT+0300 (EEST),1535659082003,7.821666666666666,8
129,6655,23,low,yes,60,,graduated_college,1535659551303,14,male,1,10,Thu Aug 30 2018 22:58:02 GMT+0300 (EEST),1535659082003,7.821666666666666,9
129,4048,23,high,yes,50,,graduated_college,1535659551303,14,male,1,8,Thu Aug 30 2018 22:58:02 GMT+0300 (EEST),1535659082003,7.821666666666666,10
129,8168,23,high,yes,1610,,graduated_college,1535659551303,14,male,1,12,Thu Aug 30 2018 22:58:02 GMT+0300 (EEST),1535659082003,7.821666666666666,11
129,4712,23,low,yes,750,,graduated_college,1535659551303,14,male,1,6,Thu Aug 30 2018 22:58:02 GMT+0300 (EEST),1535659082003,7.821666666666666,12
128,3500,24,high,yes,80,,graduated_college,1535659547760,14,female,German,10,Thu Aug 30 2018 23:00:20 GMT+0300 (EEST),1535659220546,5.453566666666666,1
128,4459,24,high,yes,150,,graduated_college,1535659547760,14,female,German,1,Thu Aug 30 2018 23:00:20 GMT+0300 (EEST),1535659220546,5.453566666666666,2
128,12563,24,low,yes,70,,graduated_college,1535659547760,14,female,German,7,Thu Aug 30 2018 23:00:20 GMT+0300 (EEST),1535659220546,5.453566666666666,3
128,3709,24,high,yes,140,,graduated_college,1535659547760,14,female,German,3,Thu Aug 30 2018 23:00:20 GMT+0300 (EEST),1535659220546,5.453566666666666,4
128,3854,24,low,yes,500,,graduated_college,1535659547760,14,female,German,6,Thu Aug 30 2018 23:00:20 GMT+0300 (EEST),1535659220546,5.453566666666666,5
128,3380,24,low,yes,80,,graduated_college,1535659547760,14,female,German,11,Thu Aug 30 2018 23:00:20 GMT+0300 (EEST),1535659220546,5.453566666666666,6
128,3595,24,low,yes,150,,graduated_college,1535659547760,14,female,German,8,Thu Aug 30 2018 23:00:20 GMT+0300 (EEST),1535659220546,5.453566666666666,7
128,4312,24,high,yes,1500,,graduated_college,1535659547760,14,female,German,5,Thu Aug 30 2018 23:00:20 GMT+0300 (EEST),1535659220546,5.453566666666666,8
128,6744,24,low,yes,1860,,graduated_college,1535659547760,14,female,German,4,Thu Aug 30 2018 23:00:20 GMT+0300 (EEST),1535659220546,5.453566666666666,9
128,5911,24,high,yes,3000000,,graduated_college,1535659547760,14,female,German,9,Thu Aug 30 2018 23:00:20 GMT+0300 (EEST),1535659220546,5.453566666666666,10
128,9415,24,low,yes,100,,graduated_college,1535659547760,14,female,German,2,Thu Aug 30 2018 23:00:20 GMT+0300 (EEST),1535659220546,5.453566666666666,11
128,4033,24,high,yes,1550,,graduated_college,1535659547760,14,female,German,12,Thu Aug 30 2018 23:00:20 GMT+0300 (EEST),1535659220546,5.453566666666666,12
127,6849,23,high,yes,900000,,higher_degree,1535658955722,14,male,German,9,Thu Aug 30 2018 22:49:14 GMT+0300 (EEST),1535658554878,6.680733333333333,1
127,3670,23,low,yes,66,,higher_degree,1535658955722,14,male,German,11,Thu Aug 30 2018 22:49:14 GMT+0300 (EEST),1535658554878,6.680733333333333,2
127,4288,23,high,yes,70,,higher_degree,1535658955722,14,male,German,2,Thu Aug 30 2018 22:49:14 GMT+0300 (EEST),1535658554878,6.680733333333333,3
127,3852,23,low,yes,1870,,higher_degree,1535658955722,14,male,German,4,Thu Aug 30 2018 22:49:14 GMT+0300 (EEST),1535658554878,6.680733333333333,4
127,4685,23,high,yes,193,,higher_degree,1535658955722,14,male,German,3,Thu Aug 30 2018 22:49:14 GMT+0300 (EEST),1535658554878,6.680733333333333,5
127,8093,23,low,yes,1395,,higher_degree,1535658955722,14,male,German,12,Thu Aug 30 2018 22:49:14 GMT+0300 (EEST),1535658554878,6.680733333333333,6
127,8066,23,high,yes,500,,higher_degree,1535658955722,14,male,German,5,Thu Aug 30 2018 22:49:14 GMT+0300 (EEST),1535658554878,6.680733333333333,7
127,3598,23,low,yes,35,,higher_degree,1535658955722,14,male,German,7,Thu Aug 30 2018 22:49:14 GMT+0300 (EEST),1535658554878,6.680733333333333,8
127,3445,23,low,yes,400,,higher_degree,1535658955722,14,male,German,6,Thu Aug 30 2018 22:49:14 GMT+0300 (EEST),1535658554878,6.680733333333333,9
127,3937,23,high,yes,1250,,higher_degree,1535658955722,14,male,German,1,Thu Aug 30 2018 22:49:14 GMT+0300 (EEST),1535658554878,6.680733333333333,10
127,3051,23,low,yes,25,,higher_degree,1535658955722,14,male,German,10,Thu Aug 30 2018 22:49:14 GMT+0300 (EEST),1535658554878,6.680733333333333,11
127,4138,23,high,yes,4500,,higher_degree,1535658955722,14,male,German,8,Thu Aug 30 2018 22:49:14 GMT+0300 (EEST),1535658554878,6.680733333333333,12
126,20551,20,low,yes,125,Vegetarians eat only 25 kg of meat per year,higher_degree,1535641470413,14,male,"German, English, C++",2,Thu Aug 30 2018 16:58:56 GMT+0200 (Mitteleuropäische Sommerzeit),1535641136846,5.55945,1
126,11323,20,high,yes,1,Vegetarians eat only 25 kg of meat per year,higher_degree,1535641470413,14,male,"German, English, C++",4,Thu Aug 30 2018 16:58:56 GMT+0200 (Mitteleuropäische Sommerzeit),1535641136846,5.55945,2
126,13544,20,high,yes,300,Vegetarians eat only 25 kg of meat per year,higher_degree,1535641470413,14,male,"German, English, C++",11,Thu Aug 30 2018 16:58:56 GMT+0200 (Mitteleuropäische Sommerzeit),1535641136846,5.55945,3
126,6920,20,low,yes,1,Vegetarians eat only 25 kg of meat per year,higher_degree,1535641470413,14,male,"German, English, C++",5,Thu Aug 30 2018 16:58:56 GMT+0200 (Mitteleuropäische Sommerzeit),1535641136846,5.55945,4
126,4096,20,low,yes,700,Vegetarians eat only 25 kg of meat per year,higher_degree,1535641470413,14,male,"German, English, C++",8,Thu Aug 30 2018 16:58:56 GMT+0200 (Mitteleuropäische Sommerzeit),1535641136846,5.55945,5
126,3682,20,low,yes,250,Vegetarians eat only 25 kg of meat per year,higher_degree,1535641470413,14,male,"German, English, C++",1,Thu Aug 30 2018 16:58:56 GMT+0200 (Mitteleuropäische Sommerzeit),1535641136846,5.55945,6
126,3630,20,low,yes,50,Vegetarians eat only 25 kg of meat per year,higher_degree,1535641470413,14,male,"German, English, C++",10,Thu Aug 30 2018 16:58:56 GMT+0200 (Mitteleuropäische Sommerzeit),1535641136846,5.55945,7
126,10457,20,high,yes,299999,Vegetarians eat only 25 kg of meat per year,higher_degree,1535641470413,14,male,"German, English, C++",9,Thu Aug 30 2018 16:58:56 GMT+0200 (Mitteleuropäische Sommerzeit),1535641136846,5.55945,8
126,4147,20,low,yes,27,Vegetarians eat only 25 kg of meat per year,higher_degree,1535641470413,14,male,"German, English, C++",3,Thu Aug 30 2018 16:58:56 GMT+0200 (Mitteleuropäische Sommerzeit),1535641136846,5.55945,9
126,4021,20,high,yes,780,Vegetarians eat only 25 kg of meat per year,higher_degree,1535641470413,14,male,"German, English, C++",6,Thu Aug 30 2018 16:58:56 GMT+0200 (Mitteleuropäische Sommerzeit),1535641136846,5.55945,10
126,3113,20,high,yes,86,Vegetarians eat only 25 kg of meat per year,higher_degree,1535641470413,14,male,"German, English, C++",7,Thu Aug 30 2018 16:58:56 GMT+0200 (Mitteleuropäische Sommerzeit),1535641136846,5.55945,11
126,6635,20,high,yes,1699,Vegetarians eat only 25 kg of meat per year,higher_degree,1535641470413,14,male,"German, English, C++",12,Thu Aug 30 2018 16:58:56 GMT+0200 (Mitteleuropäische Sommerzeit),1535641136846,5.55945,12
125,14063,99,low,no,1300,,higher_degree,1535639099519,14,other,navajo,1,Thu Aug 30 2018 16:19:24 GMT+0200 (Mitteleuropäische Sommerzeit),1535638764247,5.587866666666667,1
125,2520,99,high,no,60,,higher_degree,1535639099519,14,other,navajo,2,Thu Aug 30 2018 16:19:24 GMT+0200 (Mitteleuropäische Sommerzeit),1535638764247,5.587866666666667,2
125,18960,99,high,no,110,,higher_degree,1535639099519,14,other,navajo,7,Thu Aug 30 2018 16:19:24 GMT+0200 (Mitteleuropäische Sommerzeit),1535638764247,5.587866666666667,3
125,9341,99,low,no,300,,higher_degree,1535639099519,14,other,navajo,9,Thu Aug 30 2018 16:19:24 GMT+0200 (Mitteleuropäische Sommerzeit),1535638764247,5.587866666666667,4
125,2971,99,low,no,40,,higher_degree,1535639099519,14,other,navajo,11,Thu Aug 30 2018 16:19:24 GMT+0200 (Mitteleuropäische Sommerzeit),1535638764247,5.587866666666667,5
125,3182,99,high,no,1850,,higher_degree,1535639099519,14,other,navajo,4,Thu Aug 30 2018 16:19:24 GMT+0200 (Mitteleuropäische Sommerzeit),1535638764247,5.587866666666667,6
125,16617,99,low,no,36,,higher_degree,1535639099519,14,other,navajo,5,Thu Aug 30 2018 16:19:24 GMT+0200 (Mitteleuropäische Sommerzeit),1535638764247,5.587866666666667,7
125,3708,99,high,no,193,,higher_degree,1535639099519,14,other,navajo,3,Thu Aug 30 2018 16:19:24 GMT+0200 (Mitteleuropäische Sommerzeit),1535638764247,5.587866666666667,8
125,10004,99,high,no,5000,,higher_degree,1535639099519,14,other,navajo,8,Thu Aug 30 2018 16:19:24 GMT+0200 (Mitteleuropäische Sommerzeit),1535638764247,5.587866666666667,9
125,6088,99,low,no,1380,,higher_degree,1535639099519,14,other,navajo,12,Thu Aug 30 2018 16:19:24 GMT+0200 (Mitteleuropäische Sommerzeit),1535638764247,5.587866666666667,10
125,2693,99,low,no,400,,higher_degree,1535639099519,14,other,navajo,6,Thu Aug 30 2018 16:19:24 GMT+0200 (Mitteleuropäische Sommerzeit),1535638764247,5.587866666666667,11
125,3567,99,high,no,150,,higher_degree,1535639099519,14,other,navajo,10,Thu Aug 30 2018 16:19:24 GMT+0200 (Mitteleuropäische Sommerzeit),1535638764247,5.587866666666667,12
124,6030,22,low,no,165,,graduated_high_school,1535635659283,14,male,,1,Thu Aug 30 2018 15:23:09 GMT+0200 (CEST),1535635389151,4.5022,1
124,12174,22,low,no,500,,graduated_high_school,1535635659283,14,male,,6,Thu Aug 30 2018 15:23:09 GMT+0200 (CEST),1535635389151,4.5022,2
124,4646,22,high,no,120,,graduated_high_school,1535635659283,14,male,,3,Thu Aug 30 2018 15:23:09 GMT+0200 (CEST),1535635389151,4.5022,3
124,4210,22,low,no,65,,graduated_high_school,1535635659283,14,male,,11,Thu Aug 30 2018 15:23:09 GMT+0200 (CEST),1535635389151,4.5022,4
124,4982,22,high,no,1930,,graduated_high_school,1535635659283,14,male,,4,Thu Aug 30 2018 15:23:09 GMT+0200 (CEST),1535635389151,4.5022,5
124,5024,22,high,no,600000,,graduated_high_school,1535635659283,14,male,,9,Thu Aug 30 2018 15:23:09 GMT+0200 (CEST),1535635389151,4.5022,6
124,5160,22,high,no,1590,,graduated_high_school,1535635659283,14,male,,12,Thu Aug 30 2018 15:23:09 GMT+0200 (CEST),1535635389151,4.5022,7
124,3882,22,low,no,50,,graduated_high_school,1535635659283,14,male,,2,Thu Aug 30 2018 15:23:09 GMT+0200 (CEST),1535635389151,4.5022,8
124,3892,22,low,no,20,,graduated_high_school,1535635659283,14,male,,10,Thu Aug 30 2018 15:23:09 GMT+0200 (CEST),1535635389151,4.5022,9
124,5016,22,high,no,118,,graduated_high_school,1535635659283,14,male,,7,Thu Aug 30 2018 15:23:09 GMT+0200 (CEST),1535635389151,4.5022,10
124,4034,22,low,no,3000,,graduated_high_school,1535635659283,14,male,,8,Thu Aug 30 2018 15:23:09 GMT+0200 (CEST),1535635389151,4.5022,11
124,4700,22,high,no,15000,,graduated_high_school,1535635659283,14,male,,5,Thu Aug 30 2018 15:23:09 GMT+0200 (CEST),1535635389151,4.5022,12
123,12978,19,high,no,5000,,graduated_high_school,1535632893863,14,female,,2,Thu Aug 30 2018 14:36:11 GMT+0200 (CEST),1535632571532,5.372183333333333,1
123,3040,19,low,no,20,,graduated_high_school,1535632893863,14,female,,8,Thu Aug 30 2018 14:36:11 GMT+0200 (CEST),1535632571532,5.372183333333333,2
123,14110,19,high,no,124,,graduated_high_school,1535632893863,14,female,,3,Thu Aug 30 2018 14:36:11 GMT+0200 (CEST),1535632571532,5.372183333333333,3
123,5292,19,high,no,1910,,graduated_high_school,1535632893863,14,female,,4,Thu Aug 30 2018 14:36:11 GMT+0200 (CEST),1535632571532,5.372183333333333,4
123,4502,19,low,no,45,,graduated_high_school,1535632893863,14,female,,11,Thu Aug 30 2018 14:36:11 GMT+0200 (CEST),1535632571532,5.372183333333333,5
123,5645,19,low,no,50,,graduated_high_school,1535632893863,14,female,,10,Thu Aug 30 2018 14:36:11 GMT+0200 (CEST),1535632571532,5.372183333333333,6
123,4750,19,low,no,20000,,graduated_high_school,1535632893863,14,female,,9,Thu Aug 30 2018 14:36:11 GMT+0200 (CEST),1535632571532,5.372183333333333,7
123,5774,19,low,no,300,,graduated_high_school,1535632893863,14,female,,6,Thu Aug 30 2018 14:36:11 GMT+0200 (CEST),1535632571532,5.372183333333333,8
123,4572,19,high,no,15000,,graduated_high_school,1535632893863,14,female,,5,Thu Aug 30 2018 14:36:11 GMT+0200 (CEST),1535632571532,5.372183333333333,9
123,7534,19,high,no,45,,graduated_high_school,1535632893863,14,female,,7,Thu Aug 30 2018 14:36:11 GMT+0200 (CEST),1535632571532,5.372183333333333,10
123,8502,19,low,no,150,,graduated_high_school,1535632893863,14,female,,1,Thu Aug 30 2018 14:36:11 GMT+0200 (CEST),1535632571532,5.372183333333333,11
123,5234,19,high,no,17000,,graduated_high_school,1535632893863,14,female,,12,Thu Aug 30 2018 14:36:11 GMT+0200 (CEST),1535632571532,5.372183333333333,12
122,21985,,low,,1420,,,1535632567836,14,,,12,Thu Aug 30 2018 14:31:11 GMT+0200 (CEST),1535632271470,4.939433333333334,1
122,6471,,low,,30,,,1535632567836,14,,,8,Thu Aug 30 2018 14:31:11 GMT+0200 (CEST),1535632271470,4.939433333333334,2
122,4211,,high,,100,,,1535632567836,14,,,10,Thu Aug 30 2018 14:31:11 GMT+0200 (CEST),1535632271470,4.939433333333334,3
122,5235,,low,,44,,,1535632567836,14,,,11,Thu Aug 30 2018 14:31:11 GMT+0200 (CEST),1535632271470,4.939433333333334,4
122,4589,,high,,1922,,,1535632567836,14,,,4,Thu Aug 30 2018 14:31:11 GMT+0200 (CEST),1535632271470,4.939433333333334,5
122,4664,,high,,2,,,1535632567836,14,,,9,Thu Aug 30 2018 14:31:11 GMT+0200 (CEST),1535632271470,4.939433333333334,6
122,5767,,low,,300,,,1535632567836,14,,,1,Thu Aug 30 2018 14:31:11 GMT+0200 (CEST),1535632271470,4.939433333333334,7
122,6837,,low,,50,,,1535632567836,14,,,7,Thu Aug 30 2018 14:31:11 GMT+0200 (CEST),1535632271470,4.939433333333334,8
122,4818,,high,,40,,,1535632567836,14,,,3,Thu Aug 30 2018 14:31:11 GMT+0200 (CEST),1535632271470,4.939433333333334,9
122,4380,,low,,240,,,1535632567836,14,,,6,Thu Aug 30 2018 14:31:11 GMT+0200 (CEST),1535632271470,4.939433333333334,10
122,4240,,high,,30,,,1535632567836,14,,,2,Thu Aug 30 2018 14:31:11 GMT+0200 (CEST),1535632271470,4.939433333333334,11
122,4151,,high,,21000,,,1535632567836,14,,,5,Thu Aug 30 2018 14:31:11 GMT+0200 (CEST),1535632271470,4.939433333333334,12
121,8664,21,low,yes,45,,graduated_college,1535631830120,14,male,German,8,Thu Aug 30 2018 14:18:30 GMT+0200 (CEST),1535631510794,5.3221,1
121,2700,21,low,yes,400,,graduated_college,1535631830120,14,male,German,1,Thu Aug 30 2018 14:18:30 GMT+0200 (CEST),1535631510794,5.3221,2
121,3089,21,high,yes,1930,,graduated_college,1535631830120,14,male,German,4,Thu Aug 30 2018 14:18:30 GMT+0200 (CEST),1535631510794,5.3221,3
121,4110,21,high,yes,230000,,graduated_college,1535631830120,14,male,German,9,Thu Aug 30 2018 14:18:30 GMT+0200 (CEST),1535631510794,5.3221,4
121,2506,21,low,yes,50,,graduated_college,1535631830120,14,male,German,7,Thu Aug 30 2018 14:18:30 GMT+0200 (CEST),1535631510794,5.3221,5
121,3735,21,high,yes,145,,graduated_college,1535631830120,14,male,German,3,Thu Aug 30 2018 14:18:30 GMT+0200 (CEST),1535631510794,5.3221,6
121,3549,21,high,yes,200,,graduated_college,1535631830120,14,male,German,2,Thu Aug 30 2018 14:18:30 GMT+0200 (CEST),1535631510794,5.3221,7
121,3180,21,low,yes,30,,graduated_college,1535631830120,14,male,German,10,Thu Aug 30 2018 14:18:30 GMT+0200 (CEST),1535631510794,5.3221,8
121,4295,21,low,yes,400,,graduated_college,1535631830120,14,male,German,6,Thu Aug 30 2018 14:18:30 GMT+0200 (CEST),1535631510794,5.3221,9
121,2537,21,high,yes,85,,graduated_college,1535631830120,14,male,German,11,Thu Aug 30 2018 14:18:30 GMT+0200 (CEST),1535631510794,5.3221,10
121,3151,21,low,yes,100,,graduated_college,1535631830120,14,male,German,5,Thu Aug 30 2018 14:18:30 GMT+0200 (CEST),1535631510794,5.3221,11
121,3373,21,high,yes,1700,,graduated_college,1535631830120,14,male,German,12,Thu Aug 30 2018 14:18:30 GMT+0200 (CEST),1535631510794,5.3221,12
120,11291,19,low,no,1810,,graduated_high_school,1535631407125,14,female,"german, polish, arabic",4,Thu Aug 30 2018 14:10:01 GMT+0200 (CEST),1535631001088,6.767283333333333,1
120,12537,19,high,no,1200,,graduated_high_school,1535631407125,14,female,"german, polish, arabic",6,Thu Aug 30 2018 14:10:01 GMT+0200 (CEST),1535631001088,6.767283333333333,2
120,9322,19,low,no,1385,,graduated_high_school,1535631407125,14,female,"german, polish, arabic",12,Thu Aug 30 2018 14:10:01 GMT+0200 (CEST),1535631001088,6.767283333333333,3
120,4932,19,high,no,110,,graduated_high_school,1535631407125,14,female,"german, polish, arabic",7,Thu Aug 30 2018 14:10:01 GMT+0200 (CEST),1535631001088,6.767283333333333,4
120,4466,19,low,no,40,,graduated_high_school,1535631407125,14,female,"german, polish, arabic",5,Thu Aug 30 2018 14:10:01 GMT+0200 (CEST),1535631001088,6.767283333333333,5
120,3846,19,high,no,5000,,graduated_high_school,1535631407125,14,female,"german, polish, arabic",8,Thu Aug 30 2018 14:10:01 GMT+0200 (CEST),1535631001088,6.767283333333333,6
120,5198,19,high,no,1500,,graduated_high_school,1535631407125,14,female,"german, polish, arabic",1,Thu Aug 30 2018 14:10:01 GMT+0200 (CEST),1535631001088,6.767283333333333,7
120,17926,19,high,no,300000,,graduated_high_school,1535631407125,14,female,"german, polish, arabic",9,Thu Aug 30 2018 14:10:01 GMT+0200 (CEST),1535631001088,6.767283333333333,8
120,3764,19,low,no,50,,graduated_high_school,1535631407125,14,female,"german, polish, arabic",10,Thu Aug 30 2018 14:10:01 GMT+0200 (CEST),1535631001088,6.767283333333333,9
120,8427,19,low,no,60,,graduated_high_school,1535631407125,14,female,"german, polish, arabic",11,Thu Aug 30 2018 14:10:01 GMT+0200 (CEST),1535631001088,6.767283333333333,10
120,2632,19,low,no,30,,graduated_high_school,1535631407125,14,female,"german, polish, arabic",2,Thu Aug 30 2018 14:10:01 GMT+0200 (CEST),1535631001088,6.767283333333333,11
120,3147,19,high,no,50,,graduated_high_school,1535631407125,14,female,"german, polish, arabic",3,Thu Aug 30 2018 14:10:01 GMT+0200 (CEST),1535631001088,6.767283333333333,12
119,46498,20,low,no,64,,graduated_high_school,1535628631191,14,female,,11,Thu Aug 30 2018 13:20:20 GMT+0200 (Mitteleuropäische Sommerzeit),1535628020388,10.18005,1
119,10693,20,high,no,1600,,graduated_high_school,1535628631191,14,female,,12,Thu Aug 30 2018 13:20:20 GMT+0200 (Mitteleuropäische Sommerzeit),1535628020388,10.18005,2
119,4070,20,high,no,152,,graduated_high_school,1535628631191,14,female,,3,Thu Aug 30 2018 13:20:20 GMT+0200 (Mitteleuropäische Sommerzeit),1535628020388,10.18005,3
119,4420,20,high,no,1500,,graduated_high_school,1535628631191,14,female,,6,Thu Aug 30 2018 13:20:20 GMT+0200 (Mitteleuropäische Sommerzeit),1535628020388,10.18005,4
119,22642,20,high,no,2000,,graduated_high_school,1535628631191,14,female,,5,Thu Aug 30 2018 13:20:20 GMT+0200 (Mitteleuropäische Sommerzeit),1535628020388,10.18005,5
119,8555,20,low,no,35,,graduated_high_school,1535628631191,14,female,,2,Thu Aug 30 2018 13:20:20 GMT+0200 (Mitteleuropäische Sommerzeit),1535628020388,10.18005,6
119,4012,20,low,no,500,,graduated_high_school,1535628631191,14,female,,8,Thu Aug 30 2018 13:20:20 GMT+0200 (Mitteleuropäische Sommerzeit),1535628020388,10.18005,7
119,3254,20,low,no,42,,graduated_high_school,1535628631191,14,female,,7,Thu Aug 30 2018 13:20:20 GMT+0200 (Mitteleuropäische Sommerzeit),1535628020388,10.18005,8
119,9915,20,low,no,1895,,graduated_high_school,1535628631191,14,female,,4,Thu Aug 30 2018 13:20:20 GMT+0200 (Mitteleuropäische Sommerzeit),1535628020388,10.18005,9
119,4253,20,low,no,18,,graduated_high_school,1535628631191,14,female,,10,Thu Aug 30 2018 13:20:20 GMT+0200 (Mitteleuropäische Sommerzeit),1535628020388,10.18005,10
119,3492,20,high,no,800,,graduated_high_school,1535628631191,14,female,,1,Thu Aug 30 2018 13:20:20 GMT+0200 (Mitteleuropäische Sommerzeit),1535628020388,10.18005,11
119,7407,20,high,no,900000,,graduated_high_school,1535628631191,14,female,,9,Thu Aug 30 2018 13:20:20 GMT+0200 (Mitteleuropäische Sommerzeit),1535628020388,10.18005,12
118,10782,22,low,no,100000,,graduated_high_school,1535626185114,14,female,German,9,Thu Aug 30 2018 12:27:08 GMT+0200 (CEST),1535624828167,22.615783333333333,1
118,3940,22,high,no,1300,,graduated_high_school,1535626185114,14,female,German,1,Thu Aug 30 2018 12:27:08 GMT+0200 (CEST),1535624828167,22.615783333333333,2
118,32161,22,high,no,78,,graduated_high_school,1535626185114,14,female,German,11,Thu Aug 30 2018 12:27:08 GMT+0200 (CEST),1535624828167,22.615783333333333,3
118,4232,22,low,no,50,,graduated_high_school,1535626185114,14,female,German,2,Thu Aug 30 2018 12:27:08 GMT+0200 (CEST),1535624828167,22.615783333333333,4
118,4903,22,high,no,124,,graduated_high_school,1535626185114,14,female,German,3,Thu Aug 30 2018 12:27:08 GMT+0200 (CEST),1535624828167,22.615783333333333,5
118,4323,22,high,no,1906,,graduated_high_school,1535626185114,14,female,German,4,Thu Aug 30 2018 12:27:08 GMT+0200 (CEST),1535624828167,22.615783333333333,6
118,4166,22,high,no,160,,graduated_high_school,1535626185114,14,female,German,10,Thu Aug 30 2018 12:27:08 GMT+0200 (CEST),1535624828167,22.615783333333333,7
118,4743,22,high,no,121,,graduated_high_school,1535626185114,14,female,German,7,Thu Aug 30 2018 12:27:08 GMT+0200 (CEST),1535624828167,22.615783333333333,8
118,4044,22,low,no,500,,graduated_high_school,1535626185114,14,female,German,6,Thu Aug 30 2018 12:27:08 GMT+0200 (CEST),1535624828167,22.615783333333333,9
118,4573,22,low,no,1401,,graduated_high_school,1535626185114,14,female,German,12,Thu Aug 30 2018 12:27:08 GMT+0200 (CEST),1535624828167,22.615783333333333,10
118,11860,22,low,no,100000,,graduated_high_school,1535626185114,14,female,German,5,Thu Aug 30 2018 12:27:08 GMT+0200 (CEST),1535624828167,22.615783333333333,11
118,4135,22,low,no,294,,graduated_high_school,1535626185114,14,female,German,8,Thu Aug 30 2018 12:27:08 GMT+0200 (CEST),1535624828167,22.615783333333333,12
117,2948,25,low,no,64,,higher_degree,1535559509688,14,female,German,11,Wed Aug 29 2018 18:14:50 GMT+0200 (Mitteleuropäische Sommerzeit),1535559290997,3.64485,1
117,13616,25,low,no,1730,,higher_degree,1535559509688,14,female,German,12,Wed Aug 29 2018 18:14:50 GMT+0200 (Mitteleuropäische Sommerzeit),1535559290997,3.64485,2
117,4500,25,high,no,500,,higher_degree,1535559509688,14,female,German,1,Wed Aug 29 2018 18:14:50 GMT+0200 (Mitteleuropäische Sommerzeit),1535559290997,3.64485,3
117,3733,25,high,no,93,,higher_degree,1535559509688,14,female,German,3,Wed Aug 29 2018 18:14:50 GMT+0200 (Mitteleuropäische Sommerzeit),1535559290997,3.64485,4
117,3003,25,high,no,30,,higher_degree,1535559509688,14,female,German,5,Wed Aug 29 2018 18:14:50 GMT+0200 (Mitteleuropäische Sommerzeit),1535559290997,3.64485,5
117,3509,25,low,no,180,,higher_degree,1535559509688,14,female,German,8,Wed Aug 29 2018 18:14:50 GMT+0200 (Mitteleuropäische Sommerzeit),1535559290997,3.64485,6
117,3315,25,low,no,38,,higher_degree,1535559509688,14,female,German,10,Wed Aug 29 2018 18:14:50 GMT+0200 (Mitteleuropäische Sommerzeit),1535559290997,3.64485,7
117,5138,25,low,no,30000,,higher_degree,1535559509688,14,female,German,9,Wed Aug 29 2018 18:14:50 GMT+0200 (Mitteleuropäische Sommerzeit),1535559290997,3.64485,8
117,3630,25,high,no,2500,,higher_degree,1535559509688,14,female,German,6,Wed Aug 29 2018 18:14:50 GMT+0200 (Mitteleuropäische Sommerzeit),1535559290997,3.64485,9
117,6224,25,high,no,45,,higher_degree,1535559509688,14,female,German,7,Wed Aug 29 2018 18:14:50 GMT+0200 (Mitteleuropäische Sommerzeit),1535559290997,3.64485,10
117,15313,25,high,no,100,,higher_degree,1535559509688,14,female,German,2,Wed Aug 29 2018 18:14:50 GMT+0200 (Mitteleuropäische Sommerzeit),1535559290997,3.64485,11
117,4986,25,low,no,1830,,higher_degree,1535559509688,14,female,German,4,Wed Aug 29 2018 18:14:50 GMT+0200 (Mitteleuropäische Sommerzeit),1535559290997,3.64485,12
116,16868,22,low,yes,1000,,higher_degree,1535553669927,14,female,German,12,Wed Aug 29 2018 16:36:24 GMT+0200 (CEST),1535553384867,4751,1
116,6381,22,high,yes,1945,,higher_degree,1535553669927,14,female,German,4,Wed Aug 29 2018 16:36:24 GMT+0200 (CEST),1535553384867,4751,2
116,16703,22,low,yes,10000,,higher_degree,1535553669927,14,female,German,5,Wed Aug 29 2018 16:36:24 GMT+0200 (CEST),1535553384867,4751,3
116,4412,22,high,yes,300,,higher_degree,1535553669927,14,female,German,6,Wed Aug 29 2018 16:36:24 GMT+0200 (CEST),1535553384867,4751,4
116,5039,22,low,yes,2000000,,higher_degree,1535553669927,14,female,German,8,Wed Aug 29 2018 16:36:24 GMT+0200 (CEST),1535553384867,4751,5
116,7270,22,low,yes,100000000000,,higher_degree,1535553669927,14,female,German,9,Wed Aug 29 2018 16:36:24 GMT+0200 (CEST),1535553384867,4751,6
116,7291,22,low,yes,70,,higher_degree,1535553669927,14,female,German,2,Wed Aug 29 2018 16:36:24 GMT+0200 (CEST),1535553384867,4751,7
116,3088,22,high,yes,100,,higher_degree,1535553669927,14,female,German,10,Wed Aug 29 2018 16:36:24 GMT+0200 (CEST),1535553384867,4751,8
116,12880,22,high,yes,10000,,higher_degree,1535553669927,14,female,German,1,Wed Aug 29 2018 16:36:24 GMT+0200 (CEST),1535553384867,4751,9
116,4099,22,high,yes,30,,higher_degree,1535553669927,14,female,German,3,Wed Aug 29 2018 16:36:24 GMT+0200 (CEST),1535553384867,4751,10
116,4160,22,low,yes,111,,higher_degree,1535553669927,14,female,German,11,Wed Aug 29 2018 16:36:24 GMT+0200 (CEST),1535553384867,4751,11
116,3733,22,high,yes,60,,higher_degree,1535553669927,14,female,German,7,Wed Aug 29 2018 16:36:24 GMT+0200 (CEST),1535553384867,4751,12
115,3842,21,low,yes,54,,graduated_high_school,1535546844598,14,male,german,10,Wed Aug 29 2018 14:43:56 GMT+0200 (Mitteleuropäische Sommerzeit),1535546636641,3.46595,1
115,4094,21,high,yes,1805,,graduated_high_school,1535546844598,14,male,german,12,Wed Aug 29 2018 14:43:56 GMT+0200 (Mitteleuropäische Sommerzeit),1535546636641,3.46595,2
115,5873,21,high,yes,2000,,graduated_high_school,1535546844598,14,male,german,8,Wed Aug 29 2018 14:43:56 GMT+0200 (Mitteleuropäische Sommerzeit),1535546636641,3.46595,3
115,3890,21,high,yes,1850,,graduated_high_school,1535546844598,14,male,german,4,Wed Aug 29 2018 14:43:56 GMT+0200 (Mitteleuropäische Sommerzeit),1535546636641,3.46595,4
115,4995,21,low,yes,85,,graduated_high_school,1535546844598,14,male,german,11,Wed Aug 29 2018 14:43:56 GMT+0200 (Mitteleuropäische Sommerzeit),1535546636641,3.46595,5
115,2890,21,low,yes,30,,graduated_high_school,1535546844598,14,male,german,2,Wed Aug 29 2018 14:43:56 GMT+0200 (Mitteleuropäische Sommerzeit),1535546636641,3.46595,6
115,2342,21,high,yes,99,,graduated_high_school,1535546844598,14,male,german,7,Wed Aug 29 2018 14:43:56 GMT+0200 (Mitteleuropäische Sommerzeit),1535546636641,3.46595,7
115,5685,21,high,yes,3000,,graduated_high_school,1535546844598,14,male,german,5,Wed Aug 29 2018 14:43:56 GMT+0200 (Mitteleuropäische Sommerzeit),1535546636641,3.46595,8
115,2696,21,high,yes,800,,graduated_high_school,1535546844598,14,male,german,6,Wed Aug 29 2018 14:43:56 GMT+0200 (Mitteleuropäische Sommerzeit),1535546636641,3.46595,9
115,2527,21,low,yes,40,,graduated_high_school,1535546844598,14,male,german,3,Wed Aug 29 2018 14:43:56 GMT+0200 (Mitteleuropäische Sommerzeit),1535546636641,3.46595,10
115,7589,21,low,yes,20000,,graduated_high_school,1535546844598,14,male,german,9,Wed Aug 29 2018 14:43:56 GMT+0200 (Mitteleuropäische Sommerzeit),1535546636641,3.46595,11
115,3148,21,low,yes,350,,graduated_high_school,1535546844598,14,male,german,1,Wed Aug 29 2018 14:43:56 GMT+0200 (Mitteleuropäische Sommerzeit),1535546636641,3.46595,12
114,3845,26,high,no,1034,,graduated_college,1535544963712,14,male,German,12,Wed Aug 29 2018 14:13:00 GMT+0200 (Mitteleuropäische Sommerzeit),1535544780118,3.0599,1
114,3279,26,low,no,190,,graduated_college,1535544963712,14,male,German,1,Wed Aug 29 2018 14:13:00 GMT+0200 (Mitteleuropäische Sommerzeit),1535544780118,3.0599,2
114,4742,26,high,no,60,,graduated_college,1535544963712,14,male,German,2,Wed Aug 29 2018 14:13:00 GMT+0200 (Mitteleuropäische Sommerzeit),1535544780118,3.0599,3
114,3687,26,high,no,1888,,graduated_college,1535544963712,14,male,German,4,Wed Aug 29 2018 14:13:00 GMT+0200 (Mitteleuropäische Sommerzeit),1535544780118,3.0599,4
114,3376,26,high,no,140,,graduated_college,1535544963712,14,male,German,10,Wed Aug 29 2018 14:13:00 GMT+0200 (Mitteleuropäische Sommerzeit),1535544780118,3.0599,5
114,3520,26,low,no,500,,graduated_college,1535544963712,14,male,German,8,Wed Aug 29 2018 14:13:00 GMT+0200 (Mitteleuropäische Sommerzeit),1535544780118,3.0599,6
114,4863,26,high,no,299999,,graduated_college,1535544963712,14,male,German,9,Wed Aug 29 2018 14:13:00 GMT+0200 (Mitteleuropäische Sommerzeit),1535544780118,3.0599,7
114,2710,26,high,no,70,,graduated_college,1535544963712,14,male,German,11,Wed Aug 29 2018 14:13:00 GMT+0200 (Mitteleuropäische Sommerzeit),1535544780118,3.0599,8
114,2664,26,low,no,37,,graduated_college,1535544963712,14,male,German,5,Wed Aug 29 2018 14:13:00 GMT+0200 (Mitteleuropäische Sommerzeit),1535544780118,3.0599,9
114,1480,26,low,no,88,,graduated_college,1535544963712,14,male,German,7,Wed Aug 29 2018 14:13:00 GMT+0200 (Mitteleuropäische Sommerzeit),1535544780118,3.0599,10
114,3575,26,low,no,500,,graduated_college,1535544963712,14,male,German,6,Wed Aug 29 2018 14:13:00 GMT+0200 (Mitteleuropäische Sommerzeit),1535544780118,3.0599,11
114,2326,26,low,no,28,,graduated_college,1535544963712,14,male,German,3,Wed Aug 29 2018 14:13:00 GMT+0200 (Mitteleuropäische Sommerzeit),1535544780118,3.0599,12
113,6659,22,low,yes,30000,,graduated_high_school,1535542741411,14,female,german,9,Wed Aug 29 2018 13:32:27 GMT+0200 (Mitteleuropäische Sommerzeit),1535542347303,6.568466666666667,1
113,3864,22,low,yes,22,,graduated_high_school,1535542741411,14,female,german,10,Wed Aug 29 2018 13:32:27 GMT+0200 (Mitteleuropäische Sommerzeit),1535542347303,6.568466666666667,2
113,10960,22,high,yes,500,,graduated_high_school,1535542741411,14,female,german,6,Wed Aug 29 2018 13:32:27 GMT+0200 (Mitteleuropäische Sommerzeit),1535542347303,6.568466666666667,3
113,5566,22,high,yes,60,,graduated_high_school,1535542741411,14,female,german,2,Wed Aug 29 2018 13:32:27 GMT+0200 (Mitteleuropäische Sommerzeit),1535542347303,6.568466666666667,4
113,4098,22,high,yes,100,,graduated_high_school,1535542741411,14,female,german,7,Wed Aug 29 2018 13:32:27 GMT+0200 (Mitteleuropäische Sommerzeit),1535542347303,6.568466666666667,5
113,8682,22,low,yes,70,,graduated_high_school,1535542741411,14,female,german,5,Wed Aug 29 2018 13:32:27 GMT+0200 (Mitteleuropäische Sommerzeit),1535542347303,6.568466666666667,6
113,7306,22,high,yes,1638,,graduated_high_school,1535542741411,14,female,german,12,Wed Aug 29 2018 13:32:27 GMT+0200 (Mitteleuropäische Sommerzeit),1535542347303,6.568466666666667,7
113,12783,22,high,yes,1931,,graduated_high_school,1535542741411,14,female,german,4,Wed Aug 29 2018 13:32:27 GMT+0200 (Mitteleuropäische Sommerzeit),1535542347303,6.568466666666667,8
113,13703,22,low,yes,1000,,graduated_high_school,1535542741411,14,female,german,1,Wed Aug 29 2018 13:32:27 GMT+0200 (Mitteleuropäische Sommerzeit),1535542347303,6.568466666666667,9
113,4152,22,low,yes,21,,graduated_high_school,1535542741411,14,female,german,3,Wed Aug 29 2018 13:32:27 GMT+0200 (Mitteleuropäische Sommerzeit),1535542347303,6.568466666666667,10
113,4100,22,high,yes,65,,graduated_high_school,1535542741411,14,female,german,11,Wed Aug 29 2018 13:32:27 GMT+0200 (Mitteleuropäische Sommerzeit),1535542347303,6.568466666666667,11
113,3780,22,low,yes,250,,graduated_high_school,1535542741411,14,female,german,8,Wed Aug 29 2018 13:32:27 GMT+0200 (Mitteleuropäische Sommerzeit),1535542347303,6.568466666666667,12
112,5123,25,low,yes,1000,,graduated_college,1535539243443,14,male,German,8,Wed Aug 29 2018 12:35:58 GMT+0200 (Mitteleuropäische Sommerzeit),1535538958343,4.751666666666667,1
112,7643,25,high,yes,300000,,graduated_college,1535539243443,14,male,German,9,Wed Aug 29 2018 12:35:58 GMT+0200 (Mitteleuropäische Sommerzeit),1535538958343,4.751666666666667,2
112,10282,25,low,yes,105,,graduated_college,1535539243443,14,male,German,5,Wed Aug 29 2018 12:35:58 GMT+0200 (Mitteleuropäische Sommerzeit),1535538958343,4.751666666666667,3
112,3656,25,low,yes,66,,graduated_college,1535539243443,14,male,German,11,Wed Aug 29 2018 12:35:58 GMT+0200 (Mitteleuropäische Sommerzeit),1535538958343,4.751666666666667,4
112,4463,25,low,yes,360,,graduated_college,1535539243443,14,male,German,6,Wed Aug 29 2018 12:35:58 GMT+0200 (Mitteleuropäische Sommerzeit),1535538958343,4.751666666666667,5
112,6412,25,high,yes,195,,graduated_college,1535539243443,14,male,German,3,Wed Aug 29 2018 12:35:58 GMT+0200 (Mitteleuropäische Sommerzeit),1535538958343,4.751666666666667,6
112,3944,25,low,yes,1450,,graduated_college,1535539243443,14,male,German,12,Wed Aug 29 2018 12:35:58 GMT+0200 (Mitteleuropäische Sommerzeit),1535538958343,4.751666666666667,7
112,5628,25,high,yes,1890,,graduated_college,1535539243443,14,male,German,4,Wed Aug 29 2018 12:35:58 GMT+0200 (Mitteleuropäische Sommerzeit),1535538958343,4.751666666666667,8
112,5477,25,high,yes,1500,,graduated_college,1535539243443,14,male,German,1,Wed Aug 29 2018 12:35:58 GMT+0200 (Mitteleuropäische Sommerzeit),1535538958343,4.751666666666667,9
112,5054,25,high,yes,105,,graduated_college,1535539243443,14,male,German,2,Wed Aug 29 2018 12:35:58 GMT+0200 (Mitteleuropäische Sommerzeit),1535538958343,4.751666666666667,10
112,3860,25,low,yes,60,,graduated_college,1535539243443,14,male,German,7,Wed Aug 29 2018 12:35:58 GMT+0200 (Mitteleuropäische Sommerzeit),1535538958343,4.751666666666667,11
112,4370,25,high,yes,70,,graduated_college,1535539243443,14,male,German,10,Wed Aug 29 2018 12:35:58 GMT+0200 (Mitteleuropäische Sommerzeit),1535538958343,4.751666666666667,12
111,3946,,high,,124,,,1535538758755,14,,,3,Wed Aug 29 2018 12:29:07 GMT+0200 (CEST),1535538547034,3.5286833333333334,1
111,4423,,low,,300,,,1535538758755,14,,,1,Wed Aug 29 2018 12:29:07 GMT+0200 (CEST),1535538547034,3.5286833333333334,2
111,6930,,low,,80,,,1535538758755,14,,,10,Wed Aug 29 2018 12:29:07 GMT+0200 (CEST),1535538547034,3.5286833333333334,3
111,4165,,high,,2500,,,1535538758755,14,,,8,Wed Aug 29 2018 12:29:07 GMT+0200 (CEST),1535538547034,3.5286833333333334,4
111,4980,,high,,91,,,1535538758755,14,,,11,Wed Aug 29 2018 12:29:07 GMT+0200 (CEST),1535538547034,3.5286833333333334,5
111,5555,,high,,1500,,,1535538758755,14,,,6,Wed Aug 29 2018 12:29:07 GMT+0200 (CEST),1535538547034,3.5286833333333334,6
111,6035,,low,,500,,,1535538758755,14,,,5,Wed Aug 29 2018 12:29:07 GMT+0200 (CEST),1535538547034,3.5286833333333334,7
111,6488,,high,,1000000,,,1535538758755,14,,,9,Wed Aug 29 2018 12:29:07 GMT+0200 (CEST),1535538547034,3.5286833333333334,8
111,3187,,low,,80,,,1535538758755,14,,,7,Wed Aug 29 2018 12:29:07 GMT+0200 (CEST),1535538547034,3.5286833333333334,9
111,7810,,low,,1880,,,1535538758755,14,,,4,Wed Aug 29 2018 12:29:07 GMT+0200 (CEST),1535538547034,3.5286833333333334,10
111,6072,,high,,1710,,,1535538758755,14,,,12,Wed Aug 29 2018 12:29:07 GMT+0200 (CEST),1535538547034,3.5286833333333334,11
111,3370,,low,,14,,,1535538758755,14,,,2,Wed Aug 29 2018 12:29:07 GMT+0200 (CEST),1535538547034,3.5286833333333334,12
110,5323,23,high,no,90,,graduated_high_school,1535538313539,14,female,German,11,Wed Aug 29 2018 12:19:34 GMT+0200 (CEST),1535537974602,5.64895,1
110,4224,23,high,no,400,,graduated_high_school,1535538313539,14,female,German,2,Wed Aug 29 2018 12:19:34 GMT+0200 (CEST),1535537974602,5.64895,2
110,4360,23,high,no,1650,,graduated_high_school,1535538313539,14,female,German,12,Wed Aug 29 2018 12:19:34 GMT+0200 (CEST),1535537974602,5.64895,3
110,4955,23,low,no,25,,graduated_high_school,1535538313539,14,female,German,10,Wed Aug 29 2018 12:19:34 GMT+0200 (CEST),1535537974602,5.64895,4
110,4171,23,low,no,300,,graduated_high_school,1535538313539,14,female,German,6,Wed Aug 29 2018 12:19:34 GMT+0200 (CEST),1535537974602,5.64895,5
110,11309,23,low,no,46,,graduated_high_school,1535538313539,14,female,German,7,Wed Aug 29 2018 12:19:34 GMT+0200 (CEST),1535537974602,5.64895,6
110,5609,23,high,no,1300,,graduated_high_school,1535538313539,14,female,German,1,Wed Aug 29 2018 12:19:34 GMT+0200 (CEST),1535537974602,5.64895,7
110,4119,23,high,no,21000,,graduated_high_school,1535538313539,14,female,German,5,Wed Aug 29 2018 12:19:34 GMT+0200 (CEST),1535537974602,5.64895,8
110,4596,23,low,no,12,,graduated_high_school,1535538313539,14,female,German,3,Wed Aug 29 2018 12:19:34 GMT+0200 (CEST),1535537974602,5.64895,9
110,6841,23,low,no,1890,,graduated_high_school,1535538313539,14,female,German,4,Wed Aug 29 2018 12:19:34 GMT+0200 (CEST),1535537974602,5.64895,10
110,4406,23,low,no,200,,graduated_high_school,1535538313539,14,female,German,8,Wed Aug 29 2018 12:19:34 GMT+0200 (CEST),1535537974602,5.64895,11
110,9612,23,high,no,600000,,graduated_high_school,1535538313539,14,female,German,9,Wed Aug 29 2018 12:19:34 GMT+0200 (CEST),1535537974602,5.64895,12
109,11491,22,low,no,50,,graduated_high_school,1535537681817,14,female,german,8,Wed Aug 29 2018 12:06:40 GMT+0200 (Mitteleuropäische Sommerzeit),1535537200622,8.019916666666667,1
109,19952,22,high,no,1750,,graduated_high_school,1535537681817,14,female,german,12,Wed Aug 29 2018 12:06:40 GMT+0200 (Mitteleuropäische Sommerzeit),1535537200622,8.019916666666667,2
109,5263,22,high,no,80,,graduated_high_school,1535537681817,14,female,german,11,Wed Aug 29 2018 12:06:40 GMT+0200 (Mitteleuropäische Sommerzeit),1535537200622,8.019916666666667,3
109,4922,22,low,no,500,,graduated_high_school,1535537681817,14,female,german,6,Wed Aug 29 2018 12:06:40 GMT+0200 (Mitteleuropäische Sommerzeit),1535537200622,8.019916666666667,4
109,24857,22,high,no,1970,,graduated_high_school,1535537681817,14,female,german,4,Wed Aug 29 2018 12:06:40 GMT+0200 (Mitteleuropäische Sommerzeit),1535537200622,8.019916666666667,5
109,19021,22,high,no,15000,,graduated_high_school,1535537681817,14,female,german,5,Wed Aug 29 2018 12:06:40 GMT+0200 (Mitteleuropäische Sommerzeit),1535537200622,8.019916666666667,6
109,12467,22,low,no,40,,graduated_high_school,1535537681817,14,female,german,10,Wed Aug 29 2018 12:06:40 GMT+0200 (Mitteleuropäische Sommerzeit),1535537200622,8.019916666666667,7
109,24641,22,low,no,50000,,graduated_high_school,1535537681817,14,female,german,9,Wed Aug 29 2018 12:06:40 GMT+0200 (Mitteleuropäische Sommerzeit),1535537200622,8.019916666666667,8
109,5369,22,high,no,300,,graduated_high_school,1535537681817,14,female,german,2,Wed Aug 29 2018 12:06:40 GMT+0200 (Mitteleuropäische Sommerzeit),1535537200622,8.019916666666667,9
109,16310,22,high,no,50,,graduated_high_school,1535537681817,14,female,german,7,Wed Aug 29 2018 12:06:40 GMT+0200 (Mitteleuropäische Sommerzeit),1535537200622,8.019916666666667,10
109,10588,22,low,no,900,,graduated_high_school,1535537681817,14,female,german,1,Wed Aug 29 2018 12:06:40 GMT+0200 (Mitteleuropäische Sommerzeit),1535537200622,8.019916666666667,11
109,9302,22,low,no,20,,graduated_high_school,1535537681817,14,female,german,3,Wed Aug 29 2018 12:06:40 GMT+0200 (Mitteleuropäische Sommerzeit),1535537200622,8.019916666666667,12
108,4742,23,high,yes,145,Hey Süße :*\nIch will auch die Antworten sehen!,graduated_college,1535537038254,14,male,German,10,Wed Aug 29 2018 11:58:45 GMT+0200 (Mitteleuropäische Sommerzeit),1535536725690,5.2094,1
108,6029,23,high,yes,1625,Hey Süße :*\nIch will auch die Antworten sehen!,graduated_college,1535537038254,14,male,German,12,Wed Aug 29 2018 11:58:45 GMT+0200 (Mitteleuropäische Sommerzeit),1535536725690,5.2094,2
108,8547,23,high,yes,2100,Hey Süße :*\nIch will auch die Antworten sehen!,graduated_college,1535537038254,14,male,German,1,Wed Aug 29 2018 11:58:45 GMT+0200 (Mitteleuropäische Sommerzeit),1535536725690,5.2094,3
108,3942,23,high,yes,2500,Hey Süße :*\nIch will auch die Antworten sehen!,graduated_college,1535537038254,14,male,German,8,Wed Aug 29 2018 11:58:45 GMT+0200 (Mitteleuropäische Sommerzeit),1535536725690,5.2094,4
108,8988,23,low,yes,67,Hey Süße :*\nIch will auch die Antworten sehen!,graduated_college,1535537038254,14,male,German,11,Wed Aug 29 2018 11:58:45 GMT+0200 (Mitteleuropäische Sommerzeit),1535536725690,5.2094,5
108,5339,23,low,yes,40,Hey Süße :*\nIch will auch die Antworten sehen!,graduated_college,1535537038254,14,male,German,2,Wed Aug 29 2018 11:58:45 GMT+0200 (Mitteleuropäische Sommerzeit),1535536725690,5.2094,6
108,3319,23,high,yes,196,Hey Süße :*\nIch will auch die Antworten sehen!,graduated_college,1535537038254,14,male,German,3,Wed Aug 29 2018 11:58:45 GMT+0200 (Mitteleuropäische Sommerzeit),1535536725690,5.2094,7
108,5895,23,low,yes,300,Hey Süße :*\nIch will auch die Antworten sehen!,graduated_college,1535537038254,14,male,German,6,Wed Aug 29 2018 11:58:45 GMT+0200 (Mitteleuropäische Sommerzeit),1535536725690,5.2094,8
108,22923,23,low,yes,12000,Hey Süße :*\nIch will auch die Antworten sehen!,graduated_college,1535537038254,14,male,German,5,Wed Aug 29 2018 11:58:45 GMT+0200 (Mitteleuropäische Sommerzeit),1535536725690,5.2094,9
108,6699,23,low,yes,80,Hey Süße :*\nIch will auch die Antworten sehen!,graduated_college,1535537038254,14,male,German,7,Wed Aug 29 2018 11:58:45 GMT+0200 (Mitteleuropäische Sommerzeit),1535536725690,5.2094,10
108,4593,23,low,yes,10000,Hey Süße :*\nIch will auch die Antworten sehen!,graduated_college,1535537038254,14,male,German,9,Wed Aug 29 2018 11:58:45 GMT+0200 (Mitteleuropäische Sommerzeit),1535536725690,5.2094,11
108,4517,23,high,yes,1908,Hey Süße :*\nIch will auch die Antworten sehen!,graduated_college,1535537038254,14,male,German,4,Wed Aug 29 2018 11:58:45 GMT+0200 (Mitteleuropäische Sommerzeit),1535536725690,5.2094,12
